Folder: SandraResourceScripts/data/DSC-TGA/231027

File: uncoated.csv
Filename,MLCS 8485 uncoated
Instrument name,SDT 1 LEFT (192.168.0.183)
Operator,dAA
rundate,10/24/2023
Sample name,MLCS 8485 uncoated
proceduresegments,Data Off ; Select Gas: Gas 2 ; Balance Flow 100 mL/min; Mass Flow  100.00 mL/min; Isothermal 10.0 min; Data On ; Ramp 10.00 °C/min to 500.00 °C; Data Off
[step]
Ramp 10.00 °C/min to 500.00 °C
Time,Temperature,Heat Flow (Normalized),Weight
min,°C,W/g,%
0.00,23.02,-0.044,98.458
0.16,23.02,-0.043,98.442
0.32,23.07,-0.042,98.427
0.48,23.27,-0.040,98.412
0.64,23.69,-0.046,98.397
0.80,24.35,-0.078,98.373
0.96,25.27,-0.122,98.329
1.12,26.44,-0.170,98.286
1.28,27.84,-0.218,98.249
1.44,29.42,-0.264,98.218
1.60,31.11,-0.316,98.188
1.76,32.86,-0.372,98.160
1.92,34.65,-0.427,98.133
2.08,36.44,-0.477,98.105
2.24,38.22,-0.519,98.074
2.40,39.96,-0.550,98.038
2.56,41.67,-0.574,97.997
2.72,43.34,-0.589,97.951
2.88,44.97,-0.597,97.899
3.04,46.57,-0.598,97.841
3.20,48.14,-0.594,97.777
3.36,49.70,-0.583,97.708
3.52,51.25,-0.570,97.633
3.68,52.80,-0.554,97.553
3.84,54.34,-0.537,97.469
4.00,55.89,-0.521,97.379
4.16,57.44,-0.505,97.286
4.32,59.00,-0.491,97.189
4.48,60.57,-0.477,97.088
4.64,62.15,-0.464,96.986
4.80,63.73,-0.453,96.881
4.96,65.32,-0.441,96.774
5.12,66.91,-0.432,96.665
5.28,68.51,-0.422,96.557
5.44,70.10,-0.412,96.448
5.60,71.71,-0.402,96.341
5.76,73.31,-0.392,96.234
5.92,74.92,-0.381,96.129
6.08,76.53,-0.371,96.027
6.24,78.13,-0.360,95.927
6.40,79.74,-0.349,95.830
6.56,81.35,-0.337,95.737
6.72,82.95,-0.325,95.647
6.88,84.56,-0.312,95.560
7.04,86.17,-0.300,95.479
7.20,87.77,-0.287,95.402
7.36,89.37,-0.274,95.329
7.52,90.98,-0.260,95.260
7.68,92.59,-0.247,95.195
7.84,94.19,-0.233,95.135
8.00,95.80,-0.219,95.079
8.16,97.41,-0.205,95.027
8.32,99.02,-0.190,94.979
8.48,100.63,-0.177,94.935
8.64,102.23,-0.163,94.895
8.80,103.84,-0.150,94.858
8.96,105.45,-0.136,94.825
9.12,107.06,-0.123,94.795
9.28,108.67,-0.111,94.768
9.44,110.28,-0.098,94.745
9.60,111.89,-0.088,94.725
9.76,113.49,-0.078,94.706
9.92,115.10,-0.068,94.689
10.08,116.71,-0.058,94.675
10.24,118.31,-0.050,94.662
10.40,119.91,-0.041,94.651
10.56,121.51,-0.034,94.642
10.72,123.11,-0.027,94.634
10.88,124.71,-0.020,94.627
11.04,126.31,-0.014,94.621
11.20,127.91,-0.010,94.616
11.36,129.51,-0.006,94.611
11.52,131.10,-0.001,94.607
11.68,132.70,0.003,94.604
11.84,134.29,0.006,94.600
12.00,135.88,0.008,94.597
12.16,137.47,0.012,94.594
12.32,139.07,0.014,94.592
12.48,140.66,0.016,94.589
12.64,142.25,0.019,94.587
12.80,143.84,0.020,94.584
12.96,145.43,0.021,94.582
13.12,147.02,0.023,94.579
13.28,148.62,0.025,94.577
13.44,150.21,0.026,94.574
13.60,151.79,0.028,94.571
13.76,153.39,0.029,94.568
13.92,154.98,0.031,94.565
14.08,156.56,0.033,94.562
14.24,158.15,0.034,94.561
14.40,159.74,0.036,94.559
14.56,161.33,0.037,94.556
14.72,162.92,0.040,94.553
14.88,164.51,0.041,94.549
15.04,166.10,0.044,94.544
15.20,167.69,0.046,94.540
15.36,169.28,0.049,94.535
15.52,170.87,0.050,94.530
15.68,172.46,0.053,94.525
15.84,174.04,0.055,94.519
16.00,175.63,0.059,94.514
16.16,177.22,0.062,94.508
16.32,178.81,0.065,94.502
16.48,180.40,0.067,94.495
16.64,181.99,0.070,94.489
16.80,183.58,0.074,94.482
16.96,185.17,0.078,94.475
17.12,186.76,0.081,94.468
17.28,188.34,0.084,94.460
17.44,189.93,0.087,94.453
17.60,191.52,0.091,94.444
17.76,193.11,0.094,94.436
17.92,194.70,0.098,94.427
18.08,196.29,0.102,94.418
18.24,197.89,0.105,94.409
18.40,199.48,0.109,94.399
18.56,201.07,0.113,94.388
18.72,202.66,0.117,94.377
18.88,204.25,0.120,94.366
19.04,205.85,0.123,94.354
19.20,207.44,0.127,94.342
19.36,209.03,0.132,94.328
19.52,210.63,0.137,94.314
19.68,212.22,0.140,94.299
19.84,213.82,0.145,94.283
20.00,215.41,0.149,94.266
20.16,217.00,0.155,94.248
20.32,218.60,0.159,94.229
20.48,220.19,0.163,94.209
20.64,221.78,0.168,94.187
20.80,223.38,0.173,94.164
20.96,224.97,0.178,94.138
21.12,226.56,0.183,94.111
21.28,228.16,0.188,94.082
21.44,229.75,0.193,94.051
21.60,231.34,0.199,94.017
21.76,232.94,0.204,93.980
21.92,234.53,0.212,93.941
22.08,236.13,0.217,93.897
22.24,237.72,0.222,93.851
22.40,239.32,0.229,93.800
22.56,240.91,0.235,93.745
22.72,242.51,0.241,93.685
22.88,244.10,0.247,93.620
23.04,245.70,0.253,93.550
23.20,247.30,0.260,93.472
23.36,248.89,0.267,93.389
23.52,250.49,0.274,93.297
23.68,252.08,0.282,93.198
23.84,253.68,0.289,93.090
24.00,255.28,0.296,92.973
24.16,256.88,0.306,92.845
24.32,258.48,0.314,92.707
24.48,260.08,0.323,92.551
24.64,261.68,0.333,92.372
24.80,263.27,0.343,92.170
24.96,264.87,0.354,91.949
25.12,266.48,0.366,91.714
25.28,268.08,0.377,91.461
25.44,269.68,0.390,91.193
25.60,271.28,0.403,90.908
25.76,272.88,0.417,90.604
25.92,274.49,0.430,90.281
26.08,276.09,0.444,89.935
26.24,277.70,0.460,89.568
26.40,279.30,0.476,89.177
26.56,280.91,0.493,88.761
26.72,282.51,0.511,88.319
26.88,284.12,0.529,87.850
27.04,285.73,0.549,87.352
27.20,287.34,0.570,86.822
27.36,288.95,0.590,86.260
27.52,290.57,0.614,85.662
27.68,292.18,0.638,85.028
27.84,293.79,0.663,84.353
28.00,295.41,0.690,83.633
28.16,297.03,0.719,82.868
28.32,298.64,0.749,82.049
28.48,300.26,0.780,81.169
28.64,301.89,0.815,80.223
28.80,303.51,0.852,79.200
28.96,305.14,0.893,78.090
29.12,306.77,0.937,76.874
29.28,308.41,0.984,75.537
29.44,310.05,1.036,74.054
29.60,311.70,1.096,72.397
29.76,313.35,1.163,70.539
29.92,315.01,1.238,68.446
30.08,316.68,1.325,66.072
30.24,318.36,1.427,63.377
30.40,320.06,1.547,60.320
30.56,321.77,1.694,56.865
30.72,323.51,1.874,52.995
30.88,325.28,2.100,48.760
31.04,327.09,2.393,44.303
31.20,328.97,2.793,39.933
31.36,330.93,3.321,36.124
31.52,332.96,3.967,33.271
31.68,335.04,4.660,31.317
31.84,337.10,5.289,29.994
32.00,339.10,5.826,29.059
32.16,341.01,6.250,28.362
32.32,342.82,6.547,27.815
32.48,344.53,6.730,27.364
32.64,346.18,6.817,26.979
32.80,347.77,6.828,26.640
32.96,349.31,6.778,26.332
33.12,350.82,6.687,26.050
33.28,352.32,6.565,25.789
33.44,353.79,6.422,25.542
33.60,355.26,6.264,25.308
33.76,356.73,6.098,25.086
33.92,358.19,5.926,24.873
34.08,359.66,5.756,24.668
34.24,361.13,5.587,24.471
34.40,362.61,5.421,24.278
34.56,364.09,5.261,24.088
34.72,365.57,5.108,23.902
34.88,367.07,4.962,23.718
35.04,368.57,4.824,23.538
35.20,370.07,4.694,23.358
35.36,371.58,4.570,23.180
35.52,373.10,4.453,23.004
35.68,374.62,4.345,22.831
35.84,376.14,4.243,22.655
36.00,377.67,4.147,22.482
36.16,379.21,4.057,22.309
36.32,380.74,3.973,22.136
36.48,382.29,3.896,21.963
36.64,383.83,3.822,21.790
36.80,385.38,3.755,21.618
36.96,386.94,3.693,21.443
37.12,388.49,3.636,21.270
37.28,390.05,3.583,21.095
37.44,391.62,3.534,20.920
37.60,393.18,3.490,20.744
37.76,394.75,3.449,20.569
37.92,396.33,3.413,20.390
38.08,397.90,3.380,20.210
38.24,399.48,3.351,20.030
38.40,401.06,3.326,19.849
38.56,402.65,3.305,19.664
38.72,404.24,3.287,19.477
38.88,405.83,3.273,19.291
39.04,407.42,3.261,19.100
39.20,409.02,3.256,18.908
39.36,410.62,3.252,18.712
39.52,412.22,3.252,18.513
39.68,413.82,3.254,18.310
39.84,415.42,3.259,18.104
40.00,417.03,3.271,17.895
40.16,418.64,3.287,17.680
40.32,420.25,3.308,17.461
40.48,421.87,3.333,17.237
40.64,423.49,3.364,17.007
40.80,425.11,3.397,16.772
40.96,426.74,3.438,16.530
41.12,428.37,3.483,16.281
41.28,430.00,3.533,16.027
41.44,431.64,3.589,15.763
41.60,433.28,3.653,15.490
41.76,434.93,3.724,15.208
41.92,436.58,3.804,14.914
42.08,438.24,3.892,14.610
42.24,439.91,3.992,14.289
42.40,441.58,4.102,13.958
42.56,443.27,4.227,13.608
42.72,444.96,4.367,13.241
42.88,446.67,4.526,12.851
43.04,448.39,4.703,12.439
43.20,450.12,4.901,11.986
43.36,451.85,5.099,11.547
43.52,453.59,5.319,11.080
43.68,455.36,5.582,10.573
43.84,457.17,5.901,10.018
44.00,459.03,6.294,9.404
44.16,460.95,6.779,8.723
44.32,463.06,7.526,7.858
44.48,465.26,8.424,6.889
44.64,467.30,9.131,6.014
44.80,469.11,9.494,5.259
44.96,470.70,9.544,4.601
45.12,472.14,9.382,4.010
45.28,473.49,9.079,3.483
45.44,474.74,8.614,3.045
45.60,475.88,7.969,2.653
45.76,476.94,7.201,2.388
45.92,478.06,6.486,2.141
46.08,479.25,5.862,1.917
46.24,480.52,5.344,1.704
46.40,481.87,4.925,1.494
46.56,483.28,4.584,1.288
46.72,484.73,4.307,1.087
46.88,486.21,4.080,0.891
47.04,487.74,3.917,0.691
47.20,489.22,3.686,0.515
47.36,490.60,3.329,0.381
47.52,491.93,2.893,0.262
47.68,493.26,2.449,0.168
47.72,,,0.146